subjectID	scanner	order	block	run	trial	onsettime	ImageLeft	ImageRight	bidIndexLeft	bidIndexRight	IsleftGo	Response	PairType	Outcome	RT	bidLeft	bidRight	
cat_between_MRI_998	 1	 2	 01	 1	 1	 4.151063e+00	 PesekZman.bmp	 BambaNugat.bmp	 49	 47	 1	 x	 2	 999	 999000.00	 4.83	 4.85	 
cat_between_MRI_998	 1	 2	 01	 1	 2	 9.157019e+00	 PesekZman.bmp	 KinderBuenoWhite2.bmp	 49	 53	 1	 x	 2	 999	 999000.00	 4.83	 4.76	 
cat_between_MRI_998	 1	 2	 01	 1	 3	 1.216027e+01	 DoritosNatural.bmp	 ClickBalls5.bmp	 52	 46	 0	 x	 2	 999	 999000.00	 4.79	 4.91	 
cat_between_MRI_998	 1	 2	 01	 1	 4	 1.516368e+01	 KifkefMaklot2.bmp	 Dubonim.bmp	 12	 11	 0	 x	 1	 999	 999000.00	 5.77	 5.81	 
cat_between_MRI_998	 1	 2	 01	 1	 5	 1.815004e+01	 ChocolateParaCookies5.bmp	 ClickBalls5.bmp	 45	 46	 0	 x	 2	 999	 999000.00	 4.96	 4.91	 
cat_between_MRI_998	 1	 2	 01	 1	 6	 2.115381e+01	 Apropo.bmp	 Twix.bmp	 9	 7	 1	 x	 1	 999	 999000.00	 6.04	 6.13	 
cat_between_MRI_998	 1	 2	 01	 1	 7	 2.415716e+01	 ChocolateParaCookies5.bmp	 KashitSour.bmp	 45	 51	 0	 x	 2	 999	 999000.00	 4.96	 4.81	 
cat_between_MRI_998	 1	 2	 01	 1	 8	 3.016382e+01	 DoritosGrill.bmp	 Halva2.bmp	 18	 16	 0	 x	 1	 999	 999000.00	 5.57	 5.58	 
cat_between_MRI_998	 1	 2	 01	 1	 9	 3.515272e+01	 KinderBuenoWhite2.bmp	 ClickBalls5.bmp	 53	 46	 0	 x	 2	 999	 999000.00	 4.76	 4.91	 
cat_between_MRI_998	 1	 2	 01	 1	 10	 3.915730e+01	 ChocolateParaCookies5.bmp	 PesekZman.bmp	 45	 49	 0	 x	 2	 999	 999000.00	 4.96	 4.83	 
cat_between_MRI_998	 1	 2	 01	 1	 11	 4.416294e+01	 Apropo.bmp	 BagaleShtuhim.bmp	 9	 13	 1	 x	 1	 999	 999000.00	 6.04	 5.77	 
cat_between_MRI_998	 1	 2	 01	 1	 12	 4.915187e+01	 KifkefMaklot2.bmp	 Popco.bmp	 12	 8	 0	 x	 1	 999	 999000.00	 5.77	 6.12	 
cat_between_MRI_998	 1	 2	 01	 1	 13	 5.515855e+01	 KinderBuenoBrown3.bmp	 ClickBalls5.bmp	 44	 46	 0	 x	 2	 999	 999000.00	 5.01	 4.91	 
cat_between_MRI_998	 1	 2	 01	 1	 14	 5.816195e+01	 ClickBalls5.bmp	 Smarties.bmp	 46	 50	 1	 x	 2	 999	 999000.00	 4.91	 4.81	 
cat_between_MRI_998	 1	 2	 01	 1	 15	 6.415206e+01	 BisliGrill.bmp	 DoritosNatural.bmp	 48	 52	 1	 x	 2	 999	 999000.00	 4.85	 4.79	 
cat_between_MRI_998	 1	 2	 01	 1	 16	 6.715538e+01	 Dubonim.bmp	 DoritosGrill.bmp	 11	 18	 1	 x	 1	 999	 999000.00	 5.81	 5.57	 
cat_between_MRI_998	 1	 2	 01	 1	 17	 7.216100e+01	 BambaNugat.bmp	 ClickXLwhite4.bmp	 47	 43	 0	 x	 2	 999	 999000.00	 4.85	 5.03	 
cat_between_MRI_998	 1	 2	 01	 1	 18	 7.616550e+01	 Apropo.bmp	 DoritosGrill.bmp	 9	 18	 1	 x	 1	 999	 999000.00	 6.04	 5.57	 
cat_between_MRI_998	 1	 2	 01	 1	 19	 7.915212e+01	 PesekZman.bmp	 KinderBuenoBrown3.bmp	 49	 44	 1	 x	 2	 999	 999000.00	 4.83	 5.01	 
cat_between_MRI_998	 1	 2	 01	 1	 20	 8.816222e+01	 DoritosGrill.bmp	 Tictac.bmp	 18	 17	 0	 x	 1	 999	 999000.00	 5.57	 5.57	 
cat_between_MRI_998	 1	 2	 01	 1	 21	 9.114862e+01	 Dubonim.bmp	 WerthersOriginal.bmp	 11	 10	 1	 x	 1	 999	 999000.00	 5.81	 5.85	 
cat_between_MRI_998	 1	 2	 01	 1	 22	 9.415229e+01	 BagaleShtuhim.bmp	 Halva2.bmp	 13	 16	 0	 x	 1	 999	 999000.00	 5.77	 5.58	 
cat_between_MRI_998	 1	 2	 01	 1	 23	 9.715566e+01	 DoritosNatural.bmp	 Mentos.bmp	 52	 54	 0	 x	 2	 999	 999000.00	 4.79	 4.73	 
cat_between_MRI_998	 1	 2	 01	 1	 24	 1.061489e+02	 ClickXLwhite4.bmp	 KinderBuenoWhite2.bmp	 43	 53	 1	 x	 2	 999	 999000.00	 5.03	 4.76	 
cat_between_MRI_998	 1	 2	 01	 1	 25	 1.101536e+02	 Dubonim.bmp	 Twix.bmp	 11	 7	 1	 x	 1	 999	 999000.00	 5.81	 6.13	 
cat_between_MRI_998	 1	 2	 01	 1	 26	 1.131569e+02	 Popco.bmp	 Twix.bmp	 8	 7	 1	 x	 1	 999	 999000.00	 6.12	 6.13	 
cat_between_MRI_998	 1	 2	 01	 1	 27	 1.161604e+02	 Smarties.bmp	 PesekZman.bmp	 50	 49	 0	 x	 2	 999	 999000.00	 4.81	 4.83	 
cat_between_MRI_998	 1	 2	 01	 1	 28	 1.271561e+02	 Halva2.bmp	 WerthersOriginal.bmp	 16	 10	 1	 x	 1	 999	 999000.00	 5.58	 5.85	 
cat_between_MRI_998	 1	 2	 01	 1	 29	 1.301594e+02	 KinderBuenoWhite2.bmp	 BisliGrill.bmp	 53	 48	 0	 x	 2	 999	 999000.00	 4.76	 4.85	 
cat_between_MRI_998	 1	 2	 01	 1	 30	 1.351651e+02	 DoritosGrill.bmp	 ChocolateParaMilk3.bmp	 18	 14	 0	 x	 1	 999	 999000.00	 5.57	 5.67	 
cat_between_MRI_998	 1	 2	 01	 1	 31	 1.391529e+02	 Bounty.bmp	 Dubonim.bmp	 15	 11	 0	 x	 1	 999	 999000.00	 5.62	 5.81	 
cat_between_MRI_998	 1	 2	 01	 1	 32	 1.421562e+02	 ChocolateParaCookies5.bmp	 ClickXLwhite4.bmp	 45	 43	 0	 x	 2	 999	 999000.00	 4.96	 5.03	 
cat_between_MRI_998	 1	 2	 01	 1	 33	 1.451595e+02	 KifkefMaklot2.bmp	 ChocolateParaMilk3.bmp	 12	 14	 0	 x	 1	 999	 999000.00	 5.77	 5.67	 
cat_between_MRI_998	 1	 2	 01	 1	 34	 1.551541e+02	 BagaleShtuhim.bmp	 Dubonim.bmp	 13	 11	 0	 x	 1	 999	 999000.00	 5.77	 5.81	 
cat_between_MRI_998	 1	 2	 01	 1	 35	 1.601598e+02	 KashitSour.bmp	 KinderBuenoWhite2.bmp	 51	 53	 1	 x	 2	 999	 999000.00	 4.81	 4.76	 
cat_between_MRI_998	 1	 2	 01	 1	 36	 1.631632e+02	 KinderBuenoBrown3.bmp	 KashitSour.bmp	 44	 51	 0	 x	 2	 999	 999000.00	 5.01	 4.81	 
cat_between_MRI_998	 1	 2	 01	 1	 37	 1.671509e+02	 Bounty.bmp	 Halva2.bmp	 15	 16	 0	 x	 1	 999	 999000.00	 5.62	 5.58	 
cat_between_MRI_998	 1	 2	 01	 1	 38	 1.731577e+02	 KashitSour.bmp	 BambaNugat.bmp	 51	 47	 1	 x	 2	 999	 999000.00	 4.81	 4.85	 
cat_between_MRI_998	 1	 2	 01	 1	 39	 1.771622e+02	 Apropo.bmp	 WerthersOriginal.bmp	 9	 10	 1	 x	 1	 999	 999000.00	 6.04	 5.85	 
cat_between_MRI_998	 1	 2	 01	 1	 40	 1.821511e+02	 Tictac.bmp	 Bounty.bmp	 17	 15	 1	 x	 1	 999	 999000.00	 5.57	 5.62	 
cat_between_MRI_998	 1	 2	 01	 1	 41	 1.871567e+02	 ChocolateParaMilk3.bmp	 Twix.bmp	 14	 7	 1	 x	 1	 999	 999000.00	 5.67	 6.13	 
cat_between_MRI_998	 1	 2	 01	 1	 42	 1.911612e+02	 ClickXLwhite4.bmp	 KinderBuenoBrown3.bmp	 43	 44	 1	 x	 2	 999	 999000.00	 5.03	 5.01	 
cat_between_MRI_998	 1	 2	 01	 1	 43	 1.971513e+02	 Tictac.bmp	 KifkefMaklot2.bmp	 17	 12	 1	 x	 1	 999	 999000.00	 5.57	 5.77	 
cat_between_MRI_998	 1	 2	 01	 1	 44	 2.051602e+02	 ChocolateParaCookies5.bmp	 BisliGrill.bmp	 45	 48	 0	 x	 2	 999	 999000.00	 4.96	 4.85	 
cat_between_MRI_998	 1	 2	 01	 1	 45	 2.141537e+02	 Tictac.bmp	 BagaleShtuhim.bmp	 17	 13	 1	 x	 1	 999	 999000.00	 5.57	 5.77	 
cat_between_MRI_998	 1	 2	 01	 1	 46	 2.171571e+02	 Bounty.bmp	 Apropo.bmp	 15	 9	 0	 x	 1	 999	 999000.00	 5.62	 6.04	 
cat_between_MRI_998	 1	 2	 01	 1	 47	 2.211616e+02	 ChocolateParaMilk3.bmp	 BagaleShtuhim.bmp	 14	 13	 1	 x	 1	 999	 999000.00	 5.67	 5.77	 
cat_between_MRI_998	 1	 2	 01	 1	 48	 2.281528e+02	 KashitSour.bmp	 DoritosNatural.bmp	 51	 52	 1	 x	 2	 999	 999000.00	 4.81	 4.79	 
cat_between_MRI_998	 1	 2	 01	 1	 49	 2.321572e+02	 BambaNugat.bmp	 ClickBalls5.bmp	 47	 46	 0	 x	 2	 999	 999000.00	 4.85	 4.91	 
cat_between_MRI_998	 1	 2	 01	 1	 50	 2.371629e+02	 Popco.bmp	 DoritosGrill.bmp	 8	 18	 1	 x	 1	 999	 999000.00	 6.12	 5.57	 
cat_between_MRI_998	 1	 2	 01	 1	 51	 2.421518e+02	 BagaleShtuhim.bmp	 Popco.bmp	 13	 8	 0	 x	 1	 999	 999000.00	 5.77	 6.12	 
cat_between_MRI_998	 1	 2	 01	 1	 52	 2.451552e+02	 Smarties.bmp	 ClickXLwhite4.bmp	 50	 43	 0	 x	 2	 999	 999000.00	 4.81	 5.03	 
cat_between_MRI_998	 1	 2	 01	 1	 53	 2.501607e+02	 Halva2.bmp	 Twix.bmp	 16	 7	 1	 x	 1	 999	 999000.00	 5.58	 6.13	 
cat_between_MRI_998	 1	 2	 01	 1	 54	 2.631587e+02	 BisliGrill.bmp	 BambaNugat.bmp	 48	 47	 1	 x	 2	 999	 999000.00	 4.85	 4.85	 
cat_between_MRI_998	 1	 2	 01	 1	 55	 2.661621e+02	 KinderBuenoBrown3.bmp	 Mentos.bmp	 44	 54	 0	 x	 2	 999	 999000.00	 5.01	 4.73	 
cat_between_MRI_998	 1	 2	 01	 1	 56	 2.691654e+02	 Apropo.bmp	 KifkefMaklot2.bmp	 9	 12	 1	 x	 1	 999	 999000.00	 6.04	 5.77	 
cat_between_MRI_998	 1	 2	 01	 1	 57	 2.811623e+02	 KashitSour.bmp	 Smarties.bmp	 51	 50	 1	 x	 2	 999	 999000.00	 4.81	 4.81	 
cat_between_MRI_998	 1	 2	 01	 1	 58	 2.851497e+02	 Tictac.bmp	 WerthersOriginal.bmp	 17	 10	 1	 x	 1	 999	 999000.00	 5.57	 5.85	 
cat_between_MRI_998	 1	 2	 01	 1	 59	 2.961624e+02	 Mentos.bmp	 KinderBuenoWhite2.bmp	 54	 53	 1	 x	 2	 999	 999000.00	 4.73	 4.76	 
cat_between_MRI_998	 1	 2	 01	 1	 60	 3.031536e+02	 Bounty.bmp	 Popco.bmp	 15	 8	 0	 x	 1	 999	 999000.00	 5.62	 6.12	 
cat_between_MRI_998	 1	 2	 01	 1	 61	 3.071581e+02	 ChocolateParaCookies5.bmp	 Mentos.bmp	 45	 54	 0	 x	 2	 999	 999000.00	 4.96	 4.73	 
cat_between_MRI_998	 1	 2	 01	 1	 62	 3.101614e+02	 ChocolateParaMilk3.bmp	 Bounty.bmp	 14	 15	 1	 x	 1	 999	 999000.00	 5.67	 5.62	 
cat_between_MRI_998	 1	 2	 01	 1	 63	 3.131648e+02	 ClickXLwhite4.bmp	 DoritosNatural.bmp	 43	 52	 1	 x	 2	 999	 999000.00	 5.03	 4.79	 
cat_between_MRI_998	 1	 2	 01	 1	 64	 3.161515e+02	 WerthersOriginal.bmp	 ChocolateParaMilk3.bmp	 10	 14	 0	 x	 1	 999	 999000.00	 5.85	 5.67	 
cat_between_MRI_998	 1	 2	 01	 1	 65	 3.221582e+02	 KifkefMaklot2.bmp	 Halva2.bmp	 12	 16	 0	 x	 1	 999	 999000.00	 5.77	 5.58	 
cat_between_MRI_998	 1	 2	 01	 1	 66	 3.341551e+02	 BambaNugat.bmp	 Mentos.bmp	 47	 54	 0	 x	 2	 999	 999000.00	 4.85	 4.73	 
cat_between_MRI_998	 1	 2	 01	 1	 67	 3.371584e+02	 BisliGrill.bmp	 Smarties.bmp	 48	 50	 1	 x	 2	 999	 999000.00	 4.85	 4.81	 
cat_between_MRI_998	 1	 2	 01	 1	 68	 3.401618e+02	 Popco.bmp	 WerthersOriginal.bmp	 8	 10	 1	 x	 1	 999	 999000.00	 6.12	 5.85	 
cat_between_MRI_998	 1	 2	 01	 1	 69	 3.451507e+02	 Smarties.bmp	 Mentos.bmp	 50	 54	 0	 x	 2	 999	 999000.00	 4.81	 4.73	 
cat_between_MRI_998	 1	 2	 01	 1	 70	 3.501564e+02	 Twix.bmp	 Tictac.bmp	 7	 17	 0	 b	 1	 0	 271.88	 6.13	 5.57	 
cat_between_MRI_998	 1	 2	 01	 1	 71	 3.571642e+02	 DoritosNatural.bmp	 PesekZman.bmp	 52	 49	 0	 y	 2	 1	 280.04	 4.79	 4.83	 
cat_between_MRI_998	 1	 2	 01	 1	 72	 3.601507e+02	 BisliGrill.bmp	 KinderBuenoBrown3.bmp	 48	 44	 1	 x	 2	 999	 999000.00	 4.85	 5.01	 
